stair.thisTrialN,stair.stepSize,stair.intensity,thisRow.t,notes,trial.started,fixation.started,fixation.stopped,grating.started,key_resp.started,grating.stopped,trial.stopped,corrAns,tilt,key_resp.corr,stair.response,key_resp.rt,participant,session,date,expName,expVersion,psychopyVersion,frameRate,expStart,
0,2,10.0,0.006359416998748202,,0.0034177499983343296,0.006359416998748202,0.5177333329993417,0.5177333329993417,0.5177333329993417,0.8126986249990296,4.623774457999389,left,-10.0,1,1,3.872104374997434,712140,"001",2025-09-02_21h39.02.191,Adaptive Staircase Tutorial,,2025.2.0,None,2025-09-02 21h39.02.203918 +0530,
1,2,8.0,4.681040417002805,,4.623903625004459,4.681040417002805,5.179699457999959,5.1154472920025,5.1154472920025,5.412634625005012,7.380626750004012,right,8.0,1,1,2.263871208000637,712140,"001",2025-09-02_21h39.02.191,Adaptive Staircase Tutorial,,2025.2.0,None,2025-09-02 21h39.02.203918 +0530,
2,2,6.0,7.392614042000787,,7.380897292001464,7.392614042000787,7.8807047919981414,7.8807047919981414,7.8807047919981414,8.175894542000606,8.977590542002872,right,6.0,1,1,1.0845192500055418,712140,"001",2025-09-02_21h39.02.191,Adaptive Staircase Tutorial,,2025.2.0,None,2025-09-02 21h39.02.203918 +0530,
3,2,4.0,9.00048062499991,,8.977916208001261,9.00048062499991,9.496738250003546,9.476084667003306,9.476084667003306,9.762381874999846,10.21121670800494,right,4.0,1,1,0.7311454579976271,712140,"001",2025-09-02_21h39.02.191,Adaptive Staircase Tutorial,,2025.2.0,None,2025-09-02 21h39.02.203918 +0530,
4,2,2.0,10.215603042001021,,10.211584958000458,10.215603042001021,10.713244124999619,10.709271375002572,10.709271375002572,10.996098750001693,11.777453916998638,left,-2.0,1,1,1.0590026659992873,712140,"001",2025-09-02_21h39.02.191,Adaptive Staircase Tutorial,,2025.2.0,None,2025-09-02 21h39.02.203918 +0530,
5,1,0.0,11.785324625001522,,11.7778088749983,11.785324625001522,12.28001325000514,12.275992792005127,12.275992792005127,12.562439083005302,13.160771792005107,right,0.0,0,0,0.8782553749988438,712140,"001",2025-09-02_21h39.02.191,Adaptive Staircase Tutorial,,2025.2.0,None,2025-09-02 21h39.02.203918 +0530,
6,1,1.0,13.168639208000968,,13.161305041998276,13.168639208000968,13.662684916998842,13.659552625002107,13.659552625002107,13.945942500002275,14.394278167004813,right,1.0,0,0,0.729713583998091,712140,"001",2025-09-02_21h39.02.191,Adaptive Staircase Tutorial,,2025.2.0,None,2025-09-02 21h39.02.203918 +0530,
7,1,2.0,14.39855004200217,,14.394601792002504,14.39855004200217,14.89796975000354,14.892899375001434,14.892899375001434,15.179683207999915,15.480382792004093,left,-2.0,1,1,0.5841469580045668,712140,"001",2025-09-02_21h39.02.191,Adaptive Staircase Tutorial,,2025.2.0,None,2025-09-02 21h39.02.203918 +0530,
8,1,2.0,15.492673291999381,,15.480643000002601,15.492673291999381,15.980036500004644,15.980036500004644,15.980036500004644,16.275929583003744,16.877785707998555,left,-2.0,1,1,0.8911407080013305,712140,"001",2025-09-02_21h39.02.191,Adaptive Staircase Tutorial,,2025.2.0,None,2025-09-02 21h39.02.203918 +0530,
9,1,2.0,16.885423833002278,,16.878196167002898,16.885423833002278,17.38095704200532,17.376159457999165,17.376159457999165,17.662229417001072,17.911325083005067,right,2.0,1,1,0.523963833002199,712140,"001",2025-09-02_21h39.02.191,Adaptive Staircase Tutorial,,2025.2.0,None,2025-09-02 21h39.02.203918 +0530,
10,1,1.0,17.91908250000415,,17.911703541998577,17.91908250000415,18.412995958002284,18.40920545800327,18.40920545800327,18.695959167002002,19.244317917000444,right,1.0,1,1,0.8318101250042673,712140,"001",2025-09-02_21h39.02.191,Adaptive Staircase Tutorial,,2025.2.0,None,2025-09-02 21h39.02.203918 +0530,
11,1,1.0,19.24942112500139,,19.244730333004554,19.24942112500139,19.746603500003403,19.74273208300292,19.74273208300292,20.029761249999865,20.314121667004656,right,1.0,1,1,0.5682730830012588,712140,"001",2025-09-02_21h39.02.191,Adaptive Staircase Tutorial,,2025.2.0,None,2025-09-02 21h39.02.203918 +0530,
12,1,1.0,20.326149958003953,,20.314413167005114,20.326149958003953,20.812879000004614,20.809263542003464,20.809263542003464,21.09634499999811,21.56461875000241,left,-1.0,1,1,0.750645332998829,712140,"001",2025-09-02_21h39.02.191,Adaptive Staircase Tutorial,,2025.2.0,None,2025-09-02 21h39.02.203918 +0530,
13,0.5,0.0,21.575928625003144,,21.564875000003667,21.575928625003144,22.06353270800173,22.06353270800173,22.06353270800173,22.359356000000844,22.744564375003392,right,0.0,0,0,0.6704255829972681,712140,"001",2025-09-02_21h39.02.191,Adaptive Staircase Tutorial,,2025.2.0,None,2025-09-02 21h39.02.203918 +0530,
14,0.5,0.5,22.75344604199927,,22.74503404200368,22.75344604199927,23.2467829169982,23.242724083000212,23.242724083000212,23.52914020800381,23.964202916999056,left,-0.5,1,1,0.718238499997824,712140,"001",2025-09-02_21h39.02.191,Adaptive Staircase Tutorial,,2025.2.0,None,2025-09-02 21h39.02.203918 +0530,
15,0.5,0.5,23.976140083002974,,23.96446541700425,23.976140083002974,24.46362775000307,24.46362775000307,24.46362775000307,24.759229458002665,25.260002125003666,right,0.5,0,0,0.7822195830012788,712140,"001",2025-09-02_21h39.02.191,Adaptive Staircase Tutorial,,2025.2.0,None,2025-09-02 21h39.02.203918 +0530,
16,0.5,1.0,25.26775254200038,,25.26036337500409,25.26775254200038,25.763125000004948,25.74744500000088,25.74744500000088,26.04606012500153,26.464735542002018,right,1.0,0,0,0.7124293329979992,712140,"001",2025-09-02_21h39.02.191,Adaptive Staircase Tutorial,,2025.2.0,None,2025-09-02 21h39.02.203918 +0530,
17,0.5,1.5,26.47605220800324,,26.46500837500207,26.47605220800324,26.96399495800142,26.96399495800142,26.96399495800142,27.25913729199965,27.481073916998866,left,-1.5,0,0,0.5128332919994136,712140,"001",2025-09-02_21h39.02.191,Adaptive Staircase Tutorial,,2025.2.0,None,2025-09-02 21h39.02.203918 +0530,
18,0.5,2.0,27.492787542003498,,27.48133812499873,27.492787542003498,27.979832417004218,27.97596883300139,27.97596883300139,28.26281362499867,28.627814958003,right,2.0,1,1,0.6478818749965285,712140,"001",2025-09-02_21h39.02.191,Adaptive Staircase Tutorial,,2025.2.0,None,2025-09-02 21h39.02.203918 +0530,
19,0.5,2.0,28.63279662500281,,28.628175333004037,28.63279662500281,29.13052583300305,29.12601312500192,29.12601312500192,29.413395167001,29.71122891700361,left,-2.0,1,1,0.5716970419962308,712140,"001",2025-09-02_21h39.02.191,Adaptive Staircase Tutorial,,2025.2.0,None,2025-09-02 21h39.02.203918 +0530,
20,0.5,2.0,29.7194874170018,,29.71161816699896,29.7194874170018,30.213215499999933,30.20942954200291,30.20942954200291,30.495682542001305,31.011206708004465,left,-2.0,1,1,0.789334917004453,712140,"001",2025-09-02_21h39.02.191,Adaptive Staircase Tutorial,,2025.2.0,None,2025-09-02 21h39.02.203918 +0530,
21,0.5,1.5,31.019615666999016,,31.011616417003097,31.019615666999016,31.513230832999398,31.50940137499856,31.50940137499856,31.796561957999074,32.22777762500482,left,-1.5,1,1,0.7113239579994115,712140,"001",2025-09-02_21h39.02.191,Adaptive Staircase Tutorial,,2025.2.0,None,2025-09-02 21h39.02.203918 +0530,
22,0.5,1.5,32.23681104199932,,32.228235499998846,32.23681104199932,32.730470458001946,32.72596175000217,32.72596175000217,33.01295404200209,33.4778450829981,left,-1.5,1,1,0.7386926249964745,712140,"001",2025-09-02_21h39.02.191,Adaptive Staircase Tutorial,,2025.2.0,None,2025-09-02 21h39.02.203918 +0530,
23,0.5,1.5,33.48573925000528,,33.47813208300067,33.48573925000528,33.98046608300501,33.975903457998356,33.975903457998356,34.262588333003805,34.49459195799864,right,1.5,1,1,0.5057359579950571,712140,"001",2025-09-02_21h39.02.191,Adaptive Staircase Tutorial,,2025.2.0,None,2025-09-02 21h39.02.203918 +0530,
24,0.5,1.0,34.50349724999978,,34.49504962500214,34.50349724999978,34.9969459999993,34.992602416998125,34.992602416998125,35.279957541999465,35.61122066700045,right,1.0,1,1,0.607088874996407,712140,"001",2025-09-02_21h39.02.191,Adaptive Staircase Tutorial,,2025.2.0,None,2025-09-02 21h39.02.203918 +0530,
25,0.5,1.0,35.619480917004694,,35.61159970800509,35.619480917004694,36.11271645800298,36.109220667000045,36.109220667000045,36.39609891700093,36.74460995800473,right,1.0,1,1,0.6202787080037524,712140,"001",2025-09-02_21h39.02.191,Adaptive Staircase Tutorial,,2025.2.0,None,2025-09-02 21h39.02.203918 +0530,
26,0.5,1.0,36.753148832998704,,36.74497849999898,36.753148832998704,37.246620958001586,37.24266370799887,37.24266370799887,37.529745375002676,38.07781991700176,left,-1.0,1,1,0.8319832920024055,712140,"001",2025-09-02_21h39.02.191,Adaptive Staircase Tutorial,,2025.2.0,None,2025-09-02 21h39.02.203918 +0530,
27,0.5,0.5,38.085949917003745,,38.07818729200517,38.085949917003745,38.581197542000154,38.57611624999845,38.57611624999845,38.863152042002184,39.344546917003754,left,-0.5,1,1,0.7654768330030493,712140,"001",2025-09-02_21h39.02.191,Adaptive Staircase Tutorial,,2025.2.0,None,2025-09-02 21h39.02.203918 +0530,
28,0.5,0.5,39.350103958000545,,39.34496387500258,39.350103958000545,39.84665408300498,39.842467208000016,39.842467208000016,40.130042625001806,40.58067012500396,right,0.5,1,1,0.736033082997892,712140,"001",2025-09-02_21h39.02.191,Adaptive Staircase Tutorial,,2025.2.0,None,2025-09-02 21h39.02.203918 +0530,
29,0.5,0.5,40.59269150000182,,40.580918625004415,40.59269150000182,41.08041524999862,41.08041524999862,41.08041524999862,41.37958174999949,42.32787887500308,right,0.5,1,1,1.2441092090011807,712140,"001",2025-09-02_21h39.02.191,Adaptive Staircase Tutorial,,2025.2.0,None,2025-09-02 21h39.02.203918 +0530,
30,0.5,0.0,42.33300791700458,,42.328244167001685,42.33300791700458,42.83028662500146,42.82595358300023,42.82595358300023,43.11392487500416,43.53110679200472,right,0.0,1,1,0.7004126249958063,712140,"001",2025-09-02_21h39.02.191,Adaptive Staircase Tutorial,,2025.2.0,None,2025-09-02 21h39.02.203918 +0530,
31,0.5,0.0,43.54294820799987,,43.53135816700524,43.54294820799987,44.030672500004584,44.030672500004584,44.030672500004584,44.32603250000102,44.64432274999854,right,0.0,0,0,0.6026891660003457,712140,"001",2025-09-02_21h39.02.191,Adaptive Staircase Tutorial,,2025.2.0,None,2025-09-02 21h39.02.203918 +0530,
32,0.5,0.5,44.65279641700181,,44.64464462500473,44.65279641700181,45.146107332999236,45.14251716700528,45.14251716700528,45.42949241700262,45.877810917001625,right,0.5,1,1,0.7259777910003322,712140,"001",2025-09-02_21h39.02.191,Adaptive Staircase Tutorial,,2025.2.0,None,2025-09-02 21h39.02.203918 +0530,
33,0.5,0.5,45.886574083000596,,45.87828399999853,45.886574083000596,46.37989558299887,46.37603070800105,46.37603070800105,46.6639753749987,47.131200167001225,right,0.5,0,0,0.751302916003624,712140,"001",2025-09-02_21h39.02.191,Adaptive Staircase Tutorial,,2025.2.0,None,2025-09-02 21h39.02.203918 +0530,
34,0.5,1.0,47.142740542003594,,47.131460707998485,47.142740542003594,47.63123308300419,47.63123308300419,47.63123308300419,47.929831792003824,48.444312792002165,left,-1.0,1,1,0.8071857920003822,712140,"001",2025-09-02_21h39.02.191,Adaptive Staircase Tutorial,,2025.2.0,None,2025-09-02 21h39.02.203918 +0530,
35,0.5,1.0,48.45329983300326,,48.44469533300435,48.45329983300326,48.94649583299906,48.94259850000526,48.94259850000526,49.228857375004736,49.611139375003404,left,-1.0,1,1,0.6578161669967812,712140,"001",2025-09-02_21h39.02.191,Adaptive Staircase Tutorial,,2025.2.0,None,2025-09-02 21h39.02.203918 +0530,
36,0.5,1.0,49.6193776670043,,49.61152737500379,49.6193776670043,50.112596541999665,50.10912266700325,50.10912266700325,50.39754029200412,50.69393345800199,right,1.0,1,1,0.5731930419933633,712140,"001",2025-09-02_21h39.02.191,Adaptive Staircase Tutorial,,2025.2.0,None,2025-09-02 21h39.02.203918 +0530,
37,0.5,0.5,50.701125250001496,,50.694261958000425,50.701125250001496,51.198053125001024,51.19281808300002,51.19281808300002,51.4797555000041,51.894131291999656,right,0.5,0,0,0.6984176670011948,712140,"001",2025-09-02_21h39.02.191,Adaptive Staircase Tutorial,,2025.2.0,None,2025-09-02 21h39.02.203918 +0530,
38,0.5,1.0,51.89878237499943,,51.8945073750001,51.89878237499943,52.39639966699906,52.39258537500427,52.39258537500427,52.67952850000438,53.01097054200363,right,1.0,0,0,0.6136295000032987,712140,"001",2025-09-02_21h39.02.191,Adaptive Staircase Tutorial,,2025.2.0,None,2025-09-02 21h39.02.203918 +0530,
39,0.5,1.5,53.01518091699836,,53.01132170799974,53.01518091699836,53.5131787920036,53.509234333003405,53.509234333003405,53.79580887500197,54.244320375000825,left,-1.5,1,1,0.7230360000030487,712140,"001",2025-09-02_21h39.02.191,Adaptive Staircase Tutorial,,2025.2.0,None,2025-09-02 21h39.02.203918 +0530,
40,0.5,1.5,54.251952375001565,,54.24471929200081,54.251952375001565,54.746506708004745,54.7425193750023,54.7425193750023,55.02952666700003,55.29411995800183,left,-1.5,1,1,0.5427608340032748,712140,"001",2025-09-02_21h39.02.191,Adaptive Staircase Tutorial,,2025.2.0,None,2025-09-02 21h39.02.203918 +0530,
41,0.5,1.5,55.3023749999993,,55.2944396669991,55.3023749999993,55.796676417005074,55.792532291998214,55.792532291998214,56.07939758300199,56.34442708300048,right,1.5,1,1,0.542688540997915,712140,"001",2025-09-02_21h39.02.191,Adaptive Staircase Tutorial,,2025.2.0,None,2025-09-02 21h39.02.203918 +0530,
42,0.5,1.0,56.35228408300463,,56.34480366700154,56.35228408300463,56.84648991699942,56.84252420800476,56.84252420800476,57.12926720800169,57.41097583300143,left,-1.0,1,1,0.5627302499997313,712140,"001",2025-09-02_21h39.02.191,Adaptive Staircase Tutorial,,2025.2.0,None,2025-09-02 21h39.02.203918 +0530,
43,0.5,1.0,57.41860758300027,,57.411322500003735,57.41860758300027,57.91358166700229,57.90929091699945,57.90929091699945,58.19588058299996,58.42758912499994,left,-1.0,0,0,0.5148410000037984,712140,"001",2025-09-02_21h39.02.191,Adaptive Staircase Tutorial,,2025.2.0,None,2025-09-02 21h39.02.203918 +0530,
44,0.5,1.5,58.43239254200307,,58.42795304200263,58.43239254200307,58.929299208000884,58.92577149999852,58.92577149999852,59.21274045800237,59.54442037500121,right,1.5,1,1,0.6043202910004766,712140,"001",2025-09-02_21h39.02.191,Adaptive Staircase Tutorial,,2025.2.0,None,2025-09-02 21h39.02.203918 +0530,
45,0.5,1.5,59.55220920799911,,59.54471466700488,59.55220920799911,60.046623750000435,60.0426298750026,60.0426298750026,60.32958541699918,60.52767000000313,right,1.5,1,1,0.4775187499981257,712140,"001",2025-09-02_21h39.02.191,Adaptive Staircase Tutorial,,2025.2.0,None,2025-09-02 21h39.02.203918 +0530,
46,0.5,1.5,60.53633887500473,,60.52809745800187,60.53633887500473,61.0298063750015,61.02588916700188,61.02588916700188,61.312841917002515,61.61109945800126,left,-1.5,1,1,0.5812097919988446,712140,"001",2025-09-02_21h39.02.191,Adaptive Staircase Tutorial,,2025.2.0,None,2025-09-02 21h39.02.203918 +0530,
47,0.5,1.0,61.61588679200213,,61.61145887499879,61.61588679200213,62.11325933300395,62.109255832998315,62.109255832998315,62.39597329200478,62.89457745799882,right,1.0,0,0,0.7807971669972176,712140,"001",2025-09-02_21h39.02.191,Adaptive Staircase Tutorial,,2025.2.0,None,2025-09-02 21h39.02.203918 +0530,
48,0.5,1.5,62.89953745800449,,62.894950667003286,62.89953745800449,63.397415291998186,63.39299050000409,63.39299050000409,63.67996966699866,64.06119858300372,left,-1.5,1,1,0.6599834169974201,712140,"001",2025-09-02_21h39.02.191,Adaptive Staircase Tutorial,,2025.2.0,None,2025-09-02 21h39.02.203918 +0530,
49,0.5,1.5,64.06914129199868,,64.06157204200281,64.06914129199868,64.56301141700533,64.55911216700042,64.55911216700042,64.84669933300029,65.09442700000363,right,1.5,1,1,0.523935208999319,712140,"001",2025-09-02_21h39.02.191,Adaptive Staircase Tutorial,,2025.2.0,None,2025-09-02 21h39.02.203918 +0530,
50,0.5,1.5,65.10251091700047,,65.09478933300124,65.10251091700047,65.59698237499833,65.59266666699841,65.59266666699841,65.87957120800274,66.04734391700185,left,-1.5,0,0,0.4511603329956415,712140,"001",2025-09-02_21h39.02.191,Adaptive Staircase Tutorial,,2025.2.0,None,2025-09-02 21h39.02.203918 +0530,
51,0.5,2.0,66.05932991699956,,66.04760616700514,66.05932991699956,66.54689795800368,66.54689795800368,66.54689795800368,66.84240724999836,67.22763366700383,right,2.0,1,1,0.6680701250006678,712140,"001",2025-09-02_21h39.02.191,Adaptive Staircase Tutorial,,2025.2.0,None,2025-09-02 21h39.02.203918 +0530,
52,0.5,2.0,67.23560237500351,,67.22802287500235,67.23560237500351,67.72929629200371,67.72580941700289,67.72580941700289,68.01324145800027,68.1947250000012,right,2.0,1,1,0.46013008300360525,712140,"001",2025-09-02_21h39.02.191,Adaptive Staircase Tutorial,,2025.2.0,None,2025-09-02 21h39.02.203918 +0530,
53,0.5,2.0,68.20309245800308,,68.19511070800218,68.20309245800308,68.69661004200316,68.6924102500052,68.6924102500052,68.97928179200244,69.11086291700485,right,2.0,1,1,0.4095651669995277,712140,"001",2025-09-02_21h39.02.191,Adaptive Staircase Tutorial,,2025.2.0,None,2025-09-02 21h39.02.203918 +0530,
54,0.5,1.5,69.119309624999,,69.11125049999828,69.119309624999,69.61316600000282,69.60923104199901,69.60923104199901,69.89599433300464,70.31072770800529,left,-1.5,1,1,0.6976716249992023,712140,"001",2025-09-02_21h39.02.191,Adaptive Staircase Tutorial,,2025.2.0,None,2025-09-02 21h39.02.203918 +0530,
55,0.5,1.5,70.31922695800313,,70.31105741699866,70.31922695800313,70.81310058300005,70.80908420799824,70.80908420799824,71.0957088330033,71.34445791700273,left,-1.5,1,1,0.531739625002956,712140,"001",2025-09-02_21h39.02.191,Adaptive Staircase Tutorial,,2025.2.0,None,2025-09-02 21h39.02.203918 +0530,
56,0.5,1.5,71.34933945800003,,71.34482687499985,71.34933945800003,71.84632766700088,71.84252241699869,71.84252241699869,72.12973245800094,72.36099950000062,left,-1.5,1,1,0.509389666003699,712140,"001",2025-09-02_21h39.02.191,Adaptive Staircase Tutorial,,2025.2.0,None,2025-09-02 21h39.02.203918 +0530,
57,0.5,1.0,72.36919233300432,,72.36135666700284,72.36919233300432,72.86306150000019,72.85915433300397,72.85915433300397,73.14596787500341,73.31110545800038,left,-1.0,1,1,0.446685165996314,712140,"001",2025-09-02_21h39.02.191,Adaptive Staircase Tutorial,,2025.2.0,None,2025-09-02 21h39.02.203918 +0530,
58,0.5,1.0,73.3157894169999,,73.31146020800225,73.3157894169999,73.81320962500467,73.80925962499896,73.80925962499896,74.09600958300143,74.41096666700469,left,-1.0,1,1,0.594433708996803,712140,"001",2025-09-02_21h39.02.191,Adaptive Staircase Tutorial,,2025.2.0,None,2025-09-02 21h39.02.203918 +0530,
59,0.5,1.0,74.41886783300288,,74.41133462500147,74.41886783300288,74.9124707919982,74.90904666700226,74.90904666700226,75.19605345799937,75.47751366699958,left,-1.0,0,0,0.5657487909993506,712140,"001",2025-09-02_21h39.02.191,Adaptive Staircase Tutorial,,2025.2.0,None,2025-09-02 21h39.02.203918 +0530,
60,0.5,1.5,75.48636108299979,,75.47792299999855,75.48636108299979,75.98020099999849,75.97605504200328,75.97605504200328,76.26273879200016,76.44425691699871,left,-1.5,1,1,0.4636795840051491,712140,"001",2025-09-02_21h39.02.191,Adaptive Staircase Tutorial,,2025.2.0,None,2025-09-02 21h39.02.203918 +0530,
61,0.5,1.5,76.44886504200258,,76.44460087500192,76.44886504200258,76.94740366699989,76.94266116699873,76.94266116699873,77.2297295419994,77.5444053329993,right,1.5,1,1,0.5890347919994383,712140,"001",2025-09-02_21h39.02.191,Adaptive Staircase Tutorial,,2025.2.0,None,2025-09-02 21h39.02.203918 +0530,
62,0.5,1.5,77.55311745800282,,77.54486175000056,77.55311745800282,78.04672179200134,78.04267700000491,78.04267700000491,78.32985145800194,78.7111058330047,left,-1.5,1,1,0.6629357079946203,712140,"001",2025-09-02_21h39.02.191,Adaptive Staircase Tutorial,,2025.2.0,None,2025-09-02 21h39.02.203918 +0530,
63,0.5,1.0,78.71918462499889,,78.71144270800141,78.71918462499889,79.21352675000526,79.2091665830012,79.2091665830012,79.49599375000253,79.74446729200281,left,-1.0,1,1,0.5304328339989297,712140,"001",2025-09-02_21h39.02.191,Adaptive Staircase Tutorial,,2025.2.0,None,2025-09-02 21h39.02.203918 +0530,
64,0.5,1.0,79.74910749999981,,79.74482916700072,79.74910749999981,80.24696004200086,80.24203337500512,80.24203337500512,80.53013937500509,80.81481883300148,left,-1.0,1,1,0.5675801250035875,712140,"001",2025-09-02_21h39.02.191,Adaptive Staircase Tutorial,,2025.2.0,None,2025-09-02 21h39.02.203918 +0530,
65,0.5,1.0,80.82587229199999,,80.81509533300414,80.82587229199999,81.31381962500018,81.31381962500018,81.31381962500018,81.60916412500228,81.82761787500203,left,-1.0,1,1,0.5068659169992316,712140,"001",2025-09-02_21h39.02.191,Adaptive Staircase Tutorial,,2025.2.0,None,2025-09-02 21h39.02.203918 +0530,
66,0.5,0.5,81.83554837499833,,81.82800129200041,81.83554837499833,82.32919850000326,82.32574970800488,82.32574970800488,82.61221216700505,82.71077145800518,left,-0.5,1,1,0.37579429199831793,712140,"001",2025-09-02_21h39.02.191,Adaptive Staircase Tutorial,,2025.2.0,None,2025-09-02 21h39.02.203918 +0530,
67,0.5,0.5,82.7184475000031,,82.71114583300368,82.7184475000031,83.21264887500001,83.20903433299827,83.20903433299827,83.49580595800217,83.79421079200256,right,0.5,1,1,0.5780955000009271,712140,"001",2025-09-02_21h39.02.191,Adaptive Staircase Tutorial,,2025.2.0,None,2025-09-02 21h39.02.203918 +0530,
68,0.5,0.5,83.80207604200405,,83.79459950000455,83.80207604200405,84.2958610420028,84.2924835829981,84.2924835829981,84.57995295800356,84.69765824999922,left,-0.5,0,0,0.4009463750044233,712140,"001",2025-09-02_21h39.02.191,Adaptive Staircase Tutorial,,2025.2.0,None,2025-09-02 21h39.02.203918 +0530,
69,0.5,1.0,84.70933541699924,,84.69792720799887,84.70933541699924,85.19751850000466,85.19751850000466,85.19751850000466,85.49633475000155,85.64456549999886,right,1.0,1,1,0.43804987499606796,712140,"001",2025-09-02_21h39.02.191,Adaptive Staircase Tutorial,,2025.2.0,None,2025-09-02 21h39.02.203918 +0530,
70,0.5,1.0,85.6534296250029,,85.64505516699865,85.6534296250029,86.14639479199832,86.14252191700507,86.14252191700507,86.42929945800279,86.54427541699988,right,1.0,1,1,0.39194325000426034,712140,"001",2025-09-02_21h39.02.191,Adaptive Staircase Tutorial,,2025.2.0,None,2025-09-02 21h39.02.203918 +0530,
71,0.5,1.0,86.55304366700148,,86.5447067080022,86.55304366700148,87.04688491699926,87.0425256669987,87.0425256669987,87.32971087500482,87.49428570800228,left,-1.0,0,0,0.44116395800665487,712140,"001",2025-09-02_21h39.02.191,Adaptive Staircase Tutorial,,2025.2.0,None,2025-09-02 21h39.02.203918 +0530,
72,0.5,1.5,87.50191941700177,,87.49458904199855,87.50191941700177,87.99644575000275,87.99254075000499,87.99254075000499,88.27937820800435,88.41094349999912,right,1.5,1,1,0.40797533400473185,712140,"001",2025-09-02_21h39.02.191,Adaptive Staircase Tutorial,,2025.2.0,None,2025-09-02 21h39.02.203918 +0530,
73,0.5,1.5,88.41920937500254,,88.41130445800081,88.41920937500254,88.91307637499995,88.90913558300235,88.90913558300235,89.19617466699856,89.26110312500532,left,-1.5,0,0,0.340351417005877,712140,"001",2025-09-02_21h39.02.191,Adaptive Staircase Tutorial,,2025.2.0,None,2025-09-02 21h39.02.203918 +0530,
74,0.5,2.0,89.26913779199822,,89.2614708750043,89.26913779199822,89.76343133299815,89.75903762500093,89.75903762500093,90.04608133299917,90.19438733300194,right,2.0,1,1,0.4242638329960755,712140,"001",2025-09-02_21h39.02.191,Adaptive Staircase Tutorial,,2025.2.0,None,2025-09-02 21h39.02.203918 +0530,
75,0.5,2.0,90.20256179200078,,90.19474583300325,90.20256179200078,90.69622499999969,90.69247104199894,90.69247104199894,90.9793324170023,91.16096729200217,right,2.0,1,1,0.46588841700577177,712140,"001",2025-09-02_21h39.02.191,Adaptive Staircase Tutorial,,2025.2.0,None,2025-09-02 21h39.02.203918 +0530,
76,0.5,2.0,91.16625191699859,,91.16138966700237,91.16625191699859,91.66308129200479,91.65916258300422,91.65916258300422,91.94605437500286,92.09410841700446,left,-2.0,0,0,0.4292609580006683,712140,"001",2025-09-02_21h39.02.191,Adaptive Staircase Tutorial,,2025.2.0,None,2025-09-02 21h39.02.203918 +0530,
77,0.5,2.5,92.10197204200085,,92.09441766700184,92.10197204200085,92.59621358300501,92.59241208300227,92.59241208300227,92.87994350000372,93.1781455829987,left,-2.5,1,1,0.5819324589974713,712140,"001",2025-09-02_21h39.02.191,Adaptive Staircase Tutorial,,2025.2.0,None,2025-09-02 21h39.02.203918 +0530,
78,0.5,2.5,93.18285908300459,,93.17844725000032,93.18285908300459,93.68014620800386,93.67581875000178,93.67581875000178,93.96288612500211,94.25985879200016,right,2.5,1,1,0.5703777500020806,712140,"001",2025-09-02_21h39.02.191,Adaptive Staircase Tutorial,,2025.2.0,None,2025-09-02 21h39.02.203918 +0530,
79,0.5,2.5,94.26752987500367,,94.26024500000494,94.26752987500367,94.76259166700038,94.74804387499898,94.74804387499898,95.04558770800213,95.28043216700462,right,2.5,1,1,0.5292754170004628,712140,"001",2025-09-02_21h39.02.191,Adaptive Staircase Tutorial,,2025.2.0,None,2025-09-02 21h39.02.203918 +0530,
80,0.5,2.0,95.29271895800048,,95.28070258300431,95.29271895800048,95.78025400000479,95.78025400000479,95.78025400000479,96.07582175000425,96.44437245800509,left,-2.0,1,1,0.66005316600058,712140,"001",2025-09-02_21h39.02.191,Adaptive Staircase Tutorial,,2025.2.0,None,2025-09-02 21h39.02.203918 +0530,
81,0.5,2.0,96.44924600000377,,96.44473579199985,96.44924600000377,96.94582287500089,96.94227745800163,96.94227745800163,97.22954641700198,97.52769495800021,right,2.0,1,1,0.5770084169998881,712140,"001",2025-09-02_21h39.02.191,Adaptive Staircase Tutorial,,2025.2.0,None,2025-09-02 21h39.02.203918 +0530,
82,0.5,2.0,97.53640870800155,,97.52815725000255,97.53640870800155,98.03009270800248,98.02591291700082,98.02591291700082,98.3127572500016,98.61102145800396,right,2.0,1,1,0.5723080829993705,712140,"001",2025-09-02_21h39.02.191,Adaptive Staircase Tutorial,,2025.2.0,None,2025-09-02 21h39.02.203918 +0530,
83,0.5,1.5,98.61982479200378,,98.61151416700159,98.61982479200378,99.11302141700435,99.10913466700003,99.10913466700003,99.39675087499927,99.74437120799848,left,-1.5,1,1,0.6269647919980343,712140,"001",2025-09-02_21h39.02.191,Adaptive Staircase Tutorial,,2025.2.0,None,2025-09-02 21h39.02.203918 +0530,
84,0.5,1.5,99.75210720800533,,99.74468391700066,99.75210720800533,100.24737129200366,100.24254562499846,100.24254562499846,100.52948329200444,101.21093854200444,right,1.5,1,1,0.9617072920009377,712140,"001",2025-09-02_21h39.02.191,Adaptive Staircase Tutorial,,2025.2.0,None,2025-09-02 21h39.02.203918 +0530,
85,0.5,1.5,101.21939154199936,,101.2113212080003,101.21939154199936,101.7138950830049,101.70920912500151,101.70920912500151,101.99604337500205,102.2946735420046,left,-1.5,1,1,0.5749112089979462,712140,"001",2025-09-02_21h39.02.191,Adaptive Staircase Tutorial,,2025.2.0,None,2025-09-02 21h39.02.203918 +0530,
86,0.5,1.0,102.30283366700314,,102.29505070800224,102.30283366700314,102.79639908300305,102.7925186249995,102.7925186249995,103.07940941700508,103.37762604199816,right,1.0,1,1,0.5715118330044788,712140,"001",2025-09-02_21h39.02.191,Adaptive Staircase Tutorial,,2025.2.0,None,2025-09-02 21h39.02.203918 +0530,
87,0.5,1.0,103.3857646250035,,103.37797908300126,103.3857646250035,103.87923391700315,103.87571608299913,103.87571608299913,104.16281454200362,104.8443313750031,left,-1.0,0,0,0.957341166002152,712140,"001",2025-09-02_21h39.02.191,Adaptive Staircase Tutorial,,2025.2.0,None,2025-09-02 21h39.02.203918 +0530,
88,0.5,1.5,104.85275375000492,,104.84471650000341,104.85275375000492,105.34666558300523,105.34254450000299,105.34254450000299,105.62933908300329,106.06100779199915,right,1.5,1,1,0.7096081670024432,712140,"001",2025-09-02_21h39.02.191,Adaptive Staircase Tutorial,,2025.2.0,None,2025-09-02 21h39.02.203918 +0530,
89,0.5,1.5,106.0692512079986,,106.0613952499989,106.0692512079986,106.56342470800155,106.55903424999997,106.55903424999997,106.84600508300355,107.13064608300192,left,-1.5,1,1,0.5679318330003298,712140,"001",2025-09-02_21h39.02.191,Adaptive Staircase Tutorial,,2025.2.0,None,2025-09-02 21h39.02.203918 +0530,
90,0.5,1.5,107.14270708300319,,107.1309312500016,107.14270708300319,107.62985341699823,107.62580720800179,107.62580720800179,107.91263316700497,108.26112583299982,right,1.5,1,1,0.6241420829974231,712140,"001",2025-09-02_21h39.02.191,Adaptive Staircase Tutorial,,2025.2.0,None,2025-09-02 21h39.02.203918 +0530,
91,0.5,1.0,108.26927770800103,,108.2614942500004,108.26927770800103,108.7636329579982,108.75926716699905,108.75926716699905,109.04575625000143,109.31143166700349,left,-1.0,1,1,0.5477184579940513,712140,"001",2025-09-02_21h39.02.191,Adaptive Staircase Tutorial,,2025.2.0,None,2025-09-02 21h39.02.203918 +0530,
92,0.5,1.0,109.32037975000276,,109.31188691699936,109.32037975000276,109.81338687500102,109.809061208005,109.809061208005,110.09612704200117,110.79444800000056,left,-1.0,1,1,0.9707581659968127,712140,"001",2025-09-02_21h39.02.191,Adaptive Staircase Tutorial,,2025.2.0,None,2025-09-02 21h39.02.203918 +0530,
93,0.5,1.0,110.80224266699952,,110.79481483300333,110.80224266699952,111.29622770800052,111.29243145800137,111.29243145800137,111.57885220800381,111.81079316700198,right,1.0,1,1,0.5034738340036711,712140,"001",2025-09-02_21h39.02.191,Adaptive Staircase Tutorial,,2025.2.0,None,2025-09-02 21h39.02.203918 +0530,
94,0.5,0.5,111.81895287500083,,111.81118091700046,111.81895287500083,112.31267304200446,112.30892662500264,112.30892662500264,112.59609441700013,113.01084175000142,left,-0.5,1,1,0.6998988749983255,712140,"001",2025-09-02_21h39.02.191,Adaptive Staircase Tutorial,,2025.2.0,None,2025-09-02 21h39.02.203918 +0530,
95,0.5,0.5,113.01588845800143,,113.01123666700005,113.01588845800143,113.51257120800437,113.50901366700418,113.50901366700418,113.79573870800232,113.89663704200211,right,0.5,1,1,0.3847352500015404,712140,"001",2025-09-02_21h39.02.191,Adaptive Staircase Tutorial,,2025.2.0,None,2025-09-02 21h39.02.203918 +0530,
96,0.5,0.5,113.90909100000135,,113.89689895800257,113.90909100000135,114.39698737500294,114.39248487500299,114.39248487500299,114.67952745799994,114.9278342500038,left,-0.5,1,1,0.5233553750003921,712140,"001",2025-09-02_21h39.02.191,Adaptive Staircase Tutorial,,2025.2.0,None,2025-09-02 21h39.02.203918 +0530,
97,0.5,0.0,114.93603133300348,,114.92818800000532,114.93603133300348,115.43014137499995,115.42599445800442,115.42599445800442,115.71317487500346,115.83171129200491,left,-0.0,0,0,0.4027740840028855,712140,"001",2025-09-02_21h39.02.191,Adaptive Staircase Tutorial,,2025.2.0,None,2025-09-02 21h39.02.203918 +0530,
98,0.5,0.5,115.8424325829983,,115.83198604200152,115.8424325829983,116.33186641700013,116.33186641700013,116.33186641700013,116.62903945799917,116.92764037500456,left,-0.5,0,0,0.5829310409972095,712140,"001",2025-09-02_21h39.02.191,Adaptive Staircase Tutorial,,2025.2.0,None,2025-09-02 21h39.02.203918 +0530,
99,0.5,1.0,116.93579129200225,,116.92801041700295,116.93579129200225,117.43081504200381,117.42596562499966,117.42596562499966,117.71360445800383,117.96108429200103,right,1.0,1,1,0.5277963750049821,712140,"001",2025-09-02_21h39.02.191,Adaptive Staircase Tutorial,,2025.2.0,None,2025-09-02 21h39.02.203918 +0530,
